      O Sn
      Donaldson J, Moser W, Simpson W
      Acta Crystallographica 16 (1963) A22-A22
      The structure of the red modification of tin(II)oxide
      _cod_database_code 1100020
      _database_code_amcsd 0018222

      CELL PARAMETERS:   5.0000  5.7200 11.1200   90.000   90.000   90.000
      SPACE GROUP: Cmc2_1    
      X-RAY WAVELENGTH:     1.541838
      Cell Volume:    318.032
      Density (g/cm3):      5.626
      MAX. ABS. INTENSITY / VOLUME**2:      243.8935624    
      RIR:     14.115
      RIR based on corundum from Acta Crystallographica A38 (1982) 733-739
               2-THETA      INTENSITY    D-SPACING   H   K   L   Multiplicity
                15.94          3.78        5.5600    0   0   2         1
                24.97          8.19        3.5657    1   1   1         4
                28.64        100.00        3.1172    1   1   2         4
                31.28         11.05        2.8600    0   2   0         2
                32.20         14.23        2.7800    0   0   4         1
                32.32          4.39        2.7699    0   2   1         2
                33.94          1.39        2.6412    1   1   3         4
                35.92         11.82        2.5000    2   0   0         2
                39.81          2.39        2.2643    0   2   3         2
                45.50         13.73        1.9934    0   2   4         2
                48.36         10.23        1.8823    2   2   0         4
                49.00         12.65        1.8589    2   0   4         2
                49.09          2.47        1.8559    2   2   1         4
                51.98          3.06        1.7591    1   3   1         4
                52.09          1.01        1.7557    0   2   5         2
                54.05          8.16        1.6966    1   3   2         4
                54.69          1.72        1.6783    2   2   3         4
                55.24         13.50        1.6628    1   1   6         4
                57.39          3.00        1.6057    1   3   3         4
                59.29          7.22        1.5586    2   2   4         4
                60.18         10.09        1.5377    3   1   2         4
                67.35          1.68        1.3904    1   3   5         4
                67.37          2.20        1.3900    0   0   8         1
                73.77          2.76        1.2844    1   3   6         4
                76.14          1.41        1.2502    0   2   8         2
                76.16          1.15        1.2500    4   0   0         2
                76.38          1.29        1.2469    3   3   1         4
                77.35          1.13        1.2336    2   4   1         4
                78.07          2.30        1.2241    3   3   2         4
                78.78          1.87        1.2148    2   0   8         2
                79.06          3.94        1.2112    3   1   6         4
                84.61          1.36        1.1454    4   2   0         4
                85.10          1.76        1.1401    4   0   4         2
                85.71          1.22        1.1334    2   4   4         4
                87.17          2.72        1.1182    2   2   8         4
================================================================================
       XPOW Copyright 1993 Bob Downs, Ranjini Swaminathan and Kurt Bartelmehs
  For reference, see Downs et al. (1993) American Mineralogist 78, 1104-1107.
