      Bi2 O3
      Sillen L
      Arkiv for Kemi, Mineralogi och Geologi A12 (1938) 1-15
      X-Ray Studies on Bismuth Trioxide
      _cod_database_code 1010313
      _database_code_amcsd 0017239

      CELL PARAMETERS:  10.0800 10.0800 10.0800   90.000   90.000   90.000
      SPACE GROUP: I23       
      X-RAY WAVELENGTH:     1.541838
      Cell Volume:   1024.193
      Density (g/cm3):      9.064
      MAX. ABS. INTENSITY / VOLUME**2:      434.1022504    
      RIR:     15.594
      RIR based on corundum from Acta Crystallographica A38 (1982) 733-739
               2-THETA      INTENSITY    D-SPACING   H   K   L   Multiplicity
                12.42          3.88        7.1276    1   1   0        12
                17.60          3.66        5.0400    2   0   0         6
                21.59          7.78        4.1151    2   1   1        12
                24.99         28.06        3.5638    2   2   0        12
                27.99         82.12        3.1876    3   0   1        12
                27.99         17.88        3.1876    3   1   0        12
                30.73         21.25        2.9098    2   2   2         4
                33.26         10.25        2.6940    3   2   1        12
                33.26         46.70        2.6940    3   1   2        12
                35.63          1.86        2.5200    4   0   0         6
                37.87          5.03        2.3759    4   1   1        12
                37.87         11.98        2.3759    3   3   0        12
                40.00          2.60        2.2540    4   0   2        12
                40.00          3.84        2.2540    4   2   0        12
                42.04         18.16        2.1491    3   3   2        12
                44.01          4.79        2.0576    4   2   2        12
                45.91          7.95        1.9769    4   3   1        12
                45.91          2.39        1.9769    5   0   1        12
                49.53          4.28        1.8403    5   2   1        12
                49.53          5.00        1.8403    5   1   2        12
                52.97          5.96        1.7287    4   3   3        12
                52.97          2.42        1.7287    5   0   3        12
                52.97         24.20        1.7287    5   3   0        12
                54.63         11.64        1.6800    6   0   0         6
                54.63          2.31        1.6800    4   4   2        12
                56.26          2.53        1.6352    6   1   1        12
                56.26         20.01        1.6352    5   2   3        12
                59.42          3.94        1.5554    5   1   4        12
                60.97          5.43        1.5196    6   2   2        12
                62.49          3.84        1.4862    6   3   1        12
                62.49         10.05        1.4862    6   1   3        12
                63.99          2.94        1.4549    4   4   4         4
                65.48          3.63        1.4255    5   4   3        12
                68.39          1.55        1.3717    6   3   3        12
                68.39          1.85        1.3717    7   1   2        12
                68.39          1.06        1.3717    5   5   2        12
                69.82          1.68        1.3470    6   4   2        12
                69.82          1.53        1.3470    6   2   4        12
                74.06          1.81        1.2802    6   1   5        12
                74.06          1.29        1.2802    7   3   2        12
                75.45          1.01        1.2600    8   0   0         6
                76.83          2.24        1.2408    7   4   1        12
                79.57          7.16        1.2048    6   5   3        12
                79.57          1.09        1.2048    6   3   5        12
                80.93          3.68        1.1879    8   2   2        12
                80.93          4.04        1.1879    6   6   0        12
                82.28          3.51        1.1718    8   3   1        12
                82.28          2.45        1.1718    8   1   3        12
                84.98          1.67        1.1413    7   5   2        12
                87.67          1.23        1.1131    9   0   1        12
                89.01          1.27        1.0998    8   2   4        12
                89.01          1.15        1.0998    8   4   2        12
================================================================================
       XPOW Copyright 1993 Bob Downs, Ranjini Swaminathan and Kurt Bartelmehs
  For reference, see Downs et al. (1993) American Mineralogist 78, 1104-1107.
