      O6 Sb2 Zn
      Clark G, Reynolds D
      Zeitschrift fur Kristallographie 98 (1938) 185-190
      The crystal structure of zinc meta-antimonate Zn (Sb O3)2
      _cod_database_code 1010617
      _database_code_amcsd 0017499

      CELL PARAMETERS:   6.5850  6.5850  6.5850   90.000   90.000   90.000
      SPACE GROUP: P-4n2     
      X-RAY WAVELENGTH:     1.541838
      Cell Volume:    285.540
      Density (g/cm3):      3.593
      MAX. ABS. INTENSITY / VOLUME**2:      88.27359689    
      RIR:      8.001
      RIR based on corundum from Acta Crystallographica A38 (1982) 733-739
               2-THETA      INTENSITY    D-SPACING   H   K   L   Multiplicity
                19.06         99.99        4.6563    1   0   1         4
                23.40         81.78        3.8019    1   1   1         8
                27.08         13.57        3.2925    0   0   2         2
                30.35         47.35        2.9449    2   1   0         8
                33.33         21.51        2.6883    1   1   2         8
                33.33         17.72        2.6883    2   1   1         8
                38.67         21.37        2.3281    2   0   2         4
                38.67          4.70        2.3281    2   2   0         4
                41.12         22.57        2.1950    2   2   1         8
                41.12         39.31        2.1950    2   1   2         8
                43.46         10.71        2.0824    1   0   3         4
                43.46         30.51        2.0824    3   0   1         4
                43.46         19.66        2.0824    3   1   0         8
                45.70         12.31        1.9855    1   1   3         8
                51.96          8.56        1.7599    3   2   1         8
                51.96          1.70        1.7599    3   1   2         8
                51.96          4.54        1.7599    2   1   3         8
                55.85          5.28        1.6463    0   0   4         2
                57.72          7.48        1.5971    2   2   3         8
                57.72          4.72        1.5971    4   1   0         8
                59.56          4.14        1.5521    4   1   1         8
                59.56         10.75        1.5521    3   0   3         4
                59.56          2.34        1.5521    3   3   0         4
                63.14          7.17        1.4725    4   0   2         4
                63.14          2.66        1.4725    4   2   0         8
                64.89          7.23        1.4370    4   2   1         8
                64.89          8.68        1.4370    2   1   4         8
                64.89          6.29        1.4370    4   1   2         8
                66.61         11.18        1.4039    3   3   2         8
                66.61          3.64        1.4039    3   2   3         8
                69.99          1.32        1.3442    2   2   4         8
                73.30          6.73        1.2914    3   1   4         8
                73.30          2.01        1.2914    4   1   3         8
                73.30          1.84        1.2914    1   0   5         4
                73.30          4.78        1.2914    4   3   1         8
                74.94          2.31        1.2673    1   1   5         8
                74.94          5.86        1.2673    5   1   1         8
                78.17          2.94        1.2228    5   2   0         8
                78.17          3.85        1.2228    4   2   3         8
                79.77          1.59        1.2023    5   1   2         8
                79.77          1.04        1.2023    2   1   5         8
                84.52          1.10        1.1463    4   4   1         8
                84.52          4.64        1.1463    5   2   2         8
                84.52          2.10        1.1463    2   2   5         8
                84.52          2.65        1.1463    4   1   4         8
                86.10          2.90        1.1293    4   3   3         8
                86.10          1.41        1.1293    3   3   4         8
                86.10          1.08        1.1293    5   3   0         8
                86.10          3.19        1.1293    3   0   5         4
                87.67          3.65        1.1131    5   1   3         8
                89.24          1.73        1.0975    4   2   4         8
                89.24          2.16        1.0975    6   0   0         4
================================================================================
       XPOW Copyright 1993 Bob Downs, Ranjini Swaminathan and Kurt Bartelmehs
  For reference, see Downs et al. (1993) American Mineralogist 78, 1104-1107.
