      PbI2
      Wyckoff R W G
      Crystal Structures 1 (1963) 239-444
      Second edition. Interscience Publishers, New York, New York
      _database_code_amcsd 0011820

      CELL PARAMETERS:   4.5570  4.5570 20.9370   90.000   90.000  120.000
      SPACE GROUP: P3m1      
      X-RAY WAVELENGTH:     1.541838
      Cell Volume:    376.533
      Density (g/cm3):      6.098
      MAX. ABS. INTENSITY / VOLUME**2:      185.6481119    
      RIR:      9.912
      RIR based on corundum from Acta Crystallographica A38 (1982) 733-739
               2-THETA      INTENSITY    D-SPACING   H   K   L   Multiplicity
                12.68         54.08        6.9790    0   0   3         1
                22.53          2.50        3.9465    1   0   0         3
                22.93          5.70        3.8782    0   1   1         3
                22.93          5.72        3.8782    1   0   1         3
                24.10         12.85        3.6928    0   1   2         3
                24.10         13.05        3.6928    1   0   2         3
                25.94         79.80        3.4353    0   1   3         3
                25.94         20.20        3.4353    1   0   3         3
                28.32         22.19        3.1512    0   1   4         3
                28.32         22.03        3.1512    1   0   4         3
                31.14         20.32        2.8720    0   1   5         3
                31.14         20.31        2.8720    1   0   5         3
                34.30         20.25        2.6142    1   0   6         3
                34.30         12.55        2.6142    0   1   6         3
                37.74         10.74        2.3837    0   1   7         3
                37.74         10.86        2.3837    1   0   7         3
                38.71          7.55        2.3263    0   0   9         1
                39.55         60.86        2.2785    1   1   0         6
                41.40          6.13        2.1811    0   1   8         3
                41.40          6.08        2.1811    1   0   8         3
                41.70         16.40        2.1660    1   1   3         6
                45.25         13.06        2.0041    1   0   9         3
                45.25          4.00        2.0041    0   1   9         3
                46.85          1.99        1.9391    0   2   2         3
                46.85          1.96        1.9391    2   0   2         3
                47.91          3.37        1.8988    0   2   3         3
                47.91         13.44        1.8988    2   0   3         3
                49.27          1.02        1.8495    1   0  10         3
                49.36          4.28        1.8464    0   2   4         3
                49.36          4.31        1.8464    2   0   4         3
                51.18          4.52        1.7850    0   2   5         3
                51.18          4.52        1.7850    2   0   5         3
                52.44          7.72        1.7448    0   0  12         1
                53.34          5.14        1.7176    0   2   6         3
                53.34          3.19        1.7176    2   0   6         3
                55.82          3.12        1.6471    0   2   7         3
                55.82          3.08        1.6471    2   0   7         3
                56.54         13.42        1.6278    1   1   9         6
                58.59          1.95        1.5756    0   2   8         3
                58.59          1.97        1.5756    2   0   8         3
                61.63          4.66        1.5048    0   2   9         3
                61.63          1.44        1.5048    2   0   9         3
                62.94          1.46        1.4767    2   1   2         6
                62.94          1.44        1.4767    1   2   2         6
                63.81          2.58        1.4587    2   1   3         6
                63.81         10.22        1.4587    1   2   3         6
                65.01          3.36        1.4345    1   2   4         6
                65.01          3.34        1.4345    2   1   4         6
                66.55          3.67        1.4051    1   2   5         6
                66.55          3.66        1.4051    2   1   5         6
                67.63         19.33        1.3853    1   1  12         6
                68.40          2.69        1.3716    1   2   6         6
                68.40          4.36        1.3716    2   1   6         6
                70.55          2.73        1.3348    1   2   7         6
                70.55          2.76        1.3348    2   1   7         6
                71.72          3.56        1.3159    0   1  15         3
                71.75          8.46        1.3155    3   0   0         3
                73.01          1.83        1.2959    1   2   8         6
                73.01          1.82        1.2959    2   1   8         6
                73.22          1.22        1.2927    0   3   3         3
                73.22          1.22        1.2927    3   0   3         3
                75.75          4.60        1.2557    2   1   9         6
                75.75          1.44        1.2557    1   2   9         6
                76.73          1.07        1.2421    1   0  16         3
                76.73          1.11        1.2421    0   1  16         3
                84.64          1.71        1.1451    3   0   9         3
                84.64          1.71        1.1451    0   3   9         3
                85.15          2.07        1.1395    2   0  15         3
                85.17          1.64        1.1393    2   2   0         6
                87.41          1.44        1.1157    1   0  18         3
================================================================================
       XPOW Copyright 1993 Bob Downs, Ranjini Swaminathan and Kurt Bartelmehs
  For reference, see Downs et al. (1993) American Mineralogist 78, 1104-1107.
