      PbO
      Wyckoff R W G
      Crystal Structures 1 (1963) 85-237
      Second edition. Interscience Publishers, New York, New York
      Sample known as yellow plumbous oxide
      _database_code_amcsd 0011638

      CELL PARAMETERS:   5.8910  4.7750  5.4890   90.000   90.000   90.000
      SPACE GROUP: Pbma      
      X-RAY WAVELENGTH:     1.541838
      Cell Volume:    154.403
      Density (g/cm3):      9.600
      MAX. ABS. INTENSITY / VOLUME**2:      654.3515279    
      RIR:     22.193
      RIR based on corundum from Acta Crystallographica A38 (1982) 733-739
               2-THETA      INTENSITY    D-SPACING   H   K   L   Multiplicity
                16.15          4.09        5.4890    0   0   1         2
                22.14          3.14        4.0159    1   0   1         4
                29.05        100.00        3.0734    1   1   1         8
                30.35         25.95        2.9455    2   0   0         2
                32.63         20.16        2.7445    0   0   2         2
                35.82          1.10        2.5069    2   1   0         4
                37.68         16.36        2.3875    0   2   0         2
                40.90          1.25        2.2063    1   1   2         8
                45.15         14.27        2.0080    2   0   2         4
                49.12         12.25        1.8547    2   2   0         4
                49.23          1.48        1.8510    2   1   2         8
                49.29          2.27        1.8489    3   0   1         4
                50.68         10.57        1.8013    0   2   2         4
                53.12         16.12        1.7242    3   1   1         8
                56.04         14.66        1.6409    1   1   3         8
                60.22         10.86        1.5367    2   2   2         8
                62.80          9.43        1.4797    1   3   1         8
                63.13          1.78        1.4727    4   0   0         2
                63.66          1.84        1.4618    3   2   1         8
                68.36          1.34        1.3722    0   0   4         2
                72.89          2.20        1.2977    4   0   2         4
                73.47          4.52        1.2889    3   1   3         8
                73.60          1.23        1.2870    1   1   4         8
                75.91          1.88        1.2535    4   2   0         4
                75.99          1.26        1.2523    4   1   2         8
                76.60          1.83        1.2439    2   0   4         4
                79.45          3.98        1.2063    3   3   1         8
                80.45          1.26        1.1938    0   4   0         2
                80.78          1.53        1.1897    0   2   4         4
                81.87          3.91        1.1767    1   3   3         8
                85.09          2.67        1.1402    4   2   2         8
                87.01          2.43        1.1198    5   1   1         8
                88.34          1.67        1.1063    2   4   0         4
                88.67          2.34        1.1031    2   2   4         8
                89.54          1.56        1.0947    0   4   2         4
================================================================================
       XPOW Copyright 1993 Bob Downs, Ranjini Swaminathan and Kurt Bartelmehs
  For reference, see Downs et al. (1993) American Mineralogist 78, 1104-1107.
