      Bogdanovite
      Bayliss P
      The Canadian Mineralogist 28 (1990) 751-755
      Revised unit cell dimensions, space group,
      and chemical formula of some metallic minerals
      _database_code_amcsd 0005253

      CELL PARAMETERS:   4.0876  4.0876  4.0876   90.000   90.000   90.000
      SPACE GROUP: Pm-3m     
      X-RAY WAVELENGTH:     1.541838
      Cell Volume:     68.298
      Density (g/cm3):     15.909
      MAX. ABS. INTENSITY / VOLUME**2:      1243.018329    
      RIR:     25.440
      RIR based on corundum from Acta Crystallographica A38 (1982) 733-739
               2-THETA      INTENSITY    D-SPACING   H   K   L   Multiplicity
                21.74         11.88        4.0876    1   0   0         6
                30.94          9.89        2.8904    1   1   0        12
                38.13        100.00        2.3600    1   1   1         8
                44.32         47.88        2.0438    2   0   0         6
                49.89          5.02        1.8280    2   1   0        24
                55.03          3.69        1.6688    2   1   1        24
                64.48         28.17        1.4452    2   2   0        12
                68.92          1.80        1.3625    2   2   1        24
                73.23          1.49        1.2926    3   1   0        24
                77.44         30.90        1.2325    3   1   1        24
                81.59          8.81        1.1800    2   2   2         8
                89.77          1.72        1.0925    3   2   1        48
================================================================================
       XPOW Copyright 1993 Bob Downs, Ranjini Swaminathan and Kurt Bartelmehs
  For reference, see Downs et al. (1993) American Mineralogist 78, 1104-1107.
